Frequency (Hz)	Level (dB)
46.875000	-61.101463
93.750000	-63.824043
140.625000	-65.464561
187.500000	-67.910378
234.375000	-69.267395
281.250000	-71.754517
328.125000	-72.796738
375.000000	-71.544228
421.875000	-71.111252
468.750000	-72.559235
515.625000	-73.895683
562.500000	-74.088913
609.375000	-74.118149
656.250000	-74.177277
703.125000	-73.415543
750.000000	-72.749725
796.875000	-72.186874
843.750000	-70.475098
890.625000	-62.522804
937.500000	-42.882465
984.375000	-32.014698
1031.250000	-33.940662
1078.125000	-51.886799
1125.000000	-66.155022
1171.875000	-72.257401
1218.750000	-74.141472
1265.625000	-74.173248
1312.500000	-73.810112
1359.375000	-74.108414
1406.250000	-74.676018
1453.125000	-74.816917
1500.000000	-74.949219
1546.875000	-74.571152
1593.750000	-73.907372
1640.625000	-74.230331
1687.500000	-75.782448
1734.375000	-76.105301
1781.250000	-75.506836
1828.125000	-76.299141
1875.000000	-76.505997
1921.875000	-76.022820
1968.750000	-75.546066
2015.625000	-75.330772
2062.500000	-75.822250
2109.375000	-76.573708
2156.250000	-76.864410
2203.125000	-77.359901
2250.000000	-77.196831
2296.875000	-76.848328
2343.750000	-77.447678
2390.625000	-77.923416
2437.500000	-77.899719
2484.375000	-78.209404
2531.250000	-78.643295
2578.125000	-78.647446
2625.000000	-77.981125
2671.875000	-77.842567
2718.750000	-78.338432
2765.625000	-78.608818
2812.500000	-78.480415
2859.375000	-78.533325
2906.250000	-78.164619
2953.125000	-60.110157
3000.000000	-54.144119
3046.875000	-60.105450
3093.750000	-78.842613
3140.625000	-78.983200
3187.500000	-79.281921
3234.375000	-79.128654
3281.250000	-79.278595
3328.125000	-79.339211
3375.000000	-79.431664
3421.875000	-79.408356
3468.750000	-79.187233
3515.625000	-78.756454
3562.500000	-78.821785
3609.375000	-79.271454
3656.250000	-79.672371
3703.125000	-79.912537
3750.000000	-79.833687
3796.875000	-80.127083
3843.750000	-79.982613
3890.625000	-80.072632
3937.500000	-78.849442
3984.375000	-78.407188
4031.250000	-78.453941
4078.125000	-78.962982
4125.000000	-79.624931
4171.875000	-79.944633
4218.750000	-79.992935
4265.625000	-79.872772
4312.500000	-79.634865
4359.375000	-79.985840
4406.250000	-80.649704
4453.125000	-80.528152
4500.000000	-80.375816
4546.875000	-80.482330
4593.750000	-80.702438
4640.625000	-81.227882
4687.500000	-80.399986
4734.375000	-80.097984
4781.250000	-80.586082
4828.125000	-81.910469
4875.000000	-82.016220
4921.875000	-81.080009
4968.750000	-72.737091
5015.625000	-71.036697
5062.500000	-79.269600
5109.375000	-82.604721
5156.250000	-82.692398
5203.125000	-82.498009
5250.000000	-82.679939
5296.875000	-82.785599
5343.750000	-83.349579
5390.625000	-83.353096
5437.500000	-83.280800
5484.375000	-83.381912
5531.250000	-82.941109
5578.125000	-82.542824
5625.000000	-82.869637
5671.875000	-83.020966
5718.750000	-83.121140
5765.625000	-82.897102
5812.500000	-83.037170
5859.375000	-82.858116
5906.250000	-83.217552
5953.125000	-83.576019
6000.000000	-83.411255
6046.875000	-83.713348
6093.750000	-83.585770
6140.625000	-83.609367
6187.500000	-83.910774
6234.375000	-83.750381
6281.250000	-83.744858
6328.125000	-83.934090
6375.000000	-84.136589
6421.875000	-83.896141
6468.750000	-84.015678
6515.625000	-84.239044
6562.500000	-84.094803
6609.375000	-84.098877
6656.250000	-84.189362
6703.125000	-84.008041
6750.000000	-84.176270
6796.875000	-84.680328
6843.750000	-84.750427
6890.625000	-84.527596
6937.500000	-82.286064
6984.375000	-74.834023
7031.250000	-76.536079
7078.125000	-84.642532
7125.000000	-84.556999
7171.875000	-84.510811
7218.750000	-84.493202
7265.625000	-84.375923
7312.500000	-84.184258
7359.375000	-84.135323
7406.250000	-84.361687
7453.125000	-84.300041
7500.000000	-84.348137
7546.875000	-84.755844
7593.750000	-84.852867
7640.625000	-84.979431
7687.500000	-85.107582
7734.375000	-84.925781
7781.250000	-84.845284
7828.125000	-85.135368
7875.000000	-85.523293
7921.875000	-85.076813
7968.750000	-85.010513
8015.625000	-85.215996
8062.500000	-85.548058
8109.375000	-86.017181
8156.250000	-85.870575
8203.125000	-85.622292
8250.000000	-85.812965
8296.875000	-85.340942
8343.750000	-85.063721
8390.625000	-85.454910
8437.500000	-85.676086
8484.375000	-85.982109
8531.250000	-85.978951
8578.125000	-86.078697
8625.000000	-86.266769
8671.875000	-86.637871
8718.750000	-86.246727
8765.625000	-86.105637
8812.500000	-86.345192
8859.375000	-86.287979
8906.250000	-86.558693
8953.125000	-85.393341
9000.000000	-83.233559
9046.875000	-85.133759
9093.750000	-86.586464
9140.625000	-86.584114
9187.500000	-86.667679
9234.375000	-86.869270
9281.250000	-86.866005
9328.125000	-86.993057
9375.000000	-86.985626
9421.875000	-87.016891
9468.750000	-86.857468
9515.625000	-87.310127
9562.500000	-87.412537
9609.375000	-87.383766
9656.250000	-87.153122
9703.125000	-87.220573
9750.000000	-87.074219
9796.875000	-87.194748
9843.750000	-87.168671
9890.625000	-87.051201
9937.500000	-87.073303
9984.375000	-87.339050
10031.250000	-87.410522
10078.125000	-87.284378
10125.000000	-87.637306
10171.875000	-87.567688
10218.750000	-87.415283
10265.625000	-87.637283
10312.500000	-87.471046
10359.375000	-87.728622
10406.250000	-87.762794
10453.125000	-87.730301
10500.000000	-87.352470
10546.875000	-87.393250
10593.750000	-87.489609
10640.625000	-87.641266
10687.500000	-87.976868
10734.375000	-87.992752
10781.250000	-87.972092
10828.125000	-87.705803
10875.000000	-87.681427
10921.875000	-87.842911
10968.750000	-87.987946
11015.625000	-87.718826
11062.500000	-87.886780
11109.375000	-87.879845
11156.250000	-88.076385
11203.125000	-88.104713
11250.000000	-88.129333
11296.875000	-88.154732
11343.750000	-87.995041
11390.625000	-88.179405
11437.500000	-88.209312
11484.375000	-88.018806
11531.250000	-87.982658
11578.125000	-88.338997
11625.000000	-88.423027
11671.875000	-88.570045
11718.750000	-88.369102
11765.625000	-88.672920
11812.500000	-88.341911
11859.375000	-88.722420
11906.250000	-88.566109
11953.125000	-88.559616
12000.000000	-87.916420
12046.875000	-88.467125
12093.750000	-88.658455
12140.625000	-88.311920
12187.500000	-88.419044
12234.375000	-88.391541
12281.250000	-88.646408
12328.125000	-89.118584
12375.000000	-88.819054
12421.875000	-88.951767
12468.750000	-89.027313
12515.625000	-88.783203
12562.500000	-88.741791
12609.375000	-88.993095
12656.250000	-89.164703
12703.125000	-89.237915
12750.000000	-88.959946
12796.875000	-89.358879
12843.750000	-89.404762
12890.625000	-89.166336
12937.500000	-89.097244
12984.375000	-88.904945
13031.250000	-88.986237
13078.125000	-89.201607
13125.000000	-89.071846
13171.875000	-88.940231
13218.750000	-89.324326
13265.625000	-89.339348
13312.500000	-89.265022
13359.375000	-89.694847
13406.250000	-89.834343
13453.125000	-89.482445
13500.000000	-88.536606
13546.875000	-88.889229
13593.750000	-89.743248
13640.625000	-89.888908
13687.500000	-89.727577
13734.375000	-89.613182
13781.250000	-89.285736
13828.125000	-89.479103
13875.000000	-89.522308
13921.875000	-89.501411
13968.750000	-89.376869
14015.625000	-89.764832
14062.500000	-89.892883
14109.375000	-89.684288
14156.250000	-89.627808
14203.125000	-89.816650
14250.000000	-89.578865
14296.875000	-90.004143
14343.750000	-90.086731
14390.625000	-89.991158
14437.500000	-89.930084
14484.375000	-89.815910
14531.250000	-89.529358
14578.125000	-89.671432
14625.000000	-89.643219
14671.875000	-89.289223
14718.750000	-89.286751
14765.625000	-89.433266
14812.500000	-89.811089
14859.375000	-90.051865
14906.250000	-90.483315
14953.125000	-90.356842
15000.000000	-90.308632
15046.875000	-90.578247
15093.750000	-90.726669
15140.625000	-90.930298
15187.500000	-90.568489
15234.375000	-90.567093
15281.250000	-90.449570
15328.125000	-90.905502
15375.000000	-91.029495
15421.875000	-91.069084
15468.750000	-90.724571
15515.625000	-90.872536
15562.500000	-90.864426
15609.375000	-91.081551
15656.250000	-91.026443
15703.125000	-90.635208
15750.000000	-90.674805
15796.875000	-90.779221
15843.750000	-91.045624
15890.625000	-90.963242
15937.500000	-91.094521
15984.375000	-90.620682
16031.250000	-90.730507
16078.125000	-91.278320
16125.000000	-91.065674
16171.875000	-91.073799
16218.750000	-90.996719
16265.625000	-91.028000
16312.500000	-91.349136
16359.375000	-91.226562
16406.250000	-91.185371
16453.125000	-91.164627
16500.000000	-91.090393
16546.875000	-91.004089
16593.750000	-90.971527
16640.625000	-91.186447
16687.500000	-91.407677
16734.375000	-91.190002
16781.250000	-91.356781
16828.125000	-91.636673
16875.000000	-91.590858
16921.875000	-91.607819
16968.750000	-91.488510
17015.625000	-91.812309
17062.500000	-91.949104
17109.375000	-91.822754
17156.250000	-91.812416
17203.125000	-91.837372
17250.000000	-92.148643
17296.875000	-91.948479
17343.750000	-91.648994
17390.625000	-91.974426
17437.500000	-91.960762
17484.375000	-91.919640
17531.250000	-91.852821
17578.125000	-91.954369
17625.000000	-92.336327
17671.875000	-92.465614
17718.750000	-92.003441
17765.625000	-92.326622
17812.500000	-91.733940
17859.375000	-91.961189
17906.250000	-92.142990
17953.125000	-92.157928
18000.000000	-91.643280
18046.875000	-91.650970
18093.750000	-92.373985
18140.625000	-92.321762
18187.500000	-92.266006
18234.375000	-92.411339
18281.250000	-92.595833
18328.125000	-92.870697
18375.000000	-92.873032
18421.875000	-92.740593
18468.750000	-93.069191
18515.625000	-93.307762
18562.500000	-92.909767
18609.375000	-93.152428
18656.250000	-93.207863
18703.125000	-93.006729
18750.000000	-93.102333
18796.875000	-93.074638
18843.750000	-92.987244
18890.625000	-93.083000
18937.500000	-93.278145
18984.375000	-93.090141
19031.250000	-93.031525
19078.125000	-93.448578
19125.000000	-93.096970
19171.875000	-93.201118
19218.750000	-93.482506
19265.625000	-93.491882
19312.500000	-93.373604
19359.375000	-93.689888
19406.250000	-93.524857
19453.125000	-93.565437
19500.000000	-93.558136
19546.875000	-93.683311
19593.750000	-94.026215
19640.625000	-94.021141
19687.500000	-93.799232
19734.375000	-93.962807
19781.250000	-94.150314
19828.125000	-93.894638
19875.000000	-94.320000
19921.875000	-94.014297
19968.750000	-94.131332
20015.625000	-94.422684
20062.500000	-94.600174
20109.375000	-94.396873
20156.250000	-94.286003
20203.125000	-94.485451
20250.000000	-94.510239
20296.875000	-94.543869
20343.750000	-94.293137
20390.625000	-94.269341
20437.500000	-94.301590
20484.375000	-94.408875
20531.250000	-94.582207
20578.125000	-94.217194
20625.000000	-94.210938
20671.875000	-94.322662
20718.750000	-94.714104
20765.625000	-94.508865
20812.500000	-94.411148
20859.375000	-94.352104
20906.250000	-94.556190
20953.125000	-94.023399
21000.000000	-93.600471
21046.875000	-94.317543
21093.750000	-94.578178
21140.625000	-94.864113
21187.500000	-94.873512
21234.375000	-95.002205
21281.250000	-95.233582
21328.125000	-95.364716
21375.000000	-95.233788
21421.875000	-95.055504
21468.750000	-95.291710
21515.625000	-95.766197
21562.500000	-95.574165
21609.375000	-95.461517
21656.250000	-95.573845
21703.125000	-95.429428
21750.000000	-95.224106
21796.875000	-95.352852
21843.750000	-95.872238
21890.625000	-95.827751
21937.500000	-95.601288
21984.375000	-95.500008
22031.250000	-95.565216
22078.125000	-95.833633
22125.000000	-95.786758
22171.875000	-95.725243
22218.750000	-95.511490
22265.625000	-96.204704
22312.500000	-96.127640
22359.375000	-96.021576
22406.250000	-96.055992
22453.125000	-95.725388
22500.000000	-95.872047
22546.875000	-95.724136
22593.750000	-95.662315
22640.625000	-95.631477
22687.500000	-95.758575
22734.375000	-95.995781
22781.250000	-96.219467
22828.125000	-96.104584
22875.000000	-95.751244
22921.875000	-95.776855
22968.750000	-96.095673
23015.625000	-95.922607
23062.500000	-96.370094
23109.375000	-96.418602
23156.250000	-96.057800
23203.125000	-95.843292
23250.000000	-95.861763
23296.875000	-96.241173
23343.750000	-96.307388
23390.625000	-96.378418
23437.500000	-96.422462
23484.375000	-96.309059
23531.250000	-96.217529
23578.125000	-96.211143
23625.000000	-96.525734
23671.875000	-96.545815
23718.750000	-96.249741
23765.625000	-96.333244
23812.500000	-96.195435
23859.375000	-96.335670
23906.250000	-96.513657
23953.125000	-96.108208
